Folder: Mild-Steel-Tempering/resources

Note: README.md
# Mild-Steel-Tempering
UC Berkeley-Ext Data Analytics Boot Camp Project4 - Solo

File: all_cols_post_scrape.csv
steel_type,C,Mn,P,S,Si,Ni,Cr,Mo,V,Cu,final_hardness_post_tempering_HRC,yield_strength_MPa,ultimate_strength_MPA,tempering_time_s,tempering_temperature_C
AISI-SAE 1026,0.25,0.79,0.012,0.026,0.11,0.0,0.0,0.0,0.0,0.0,50.6,415,490,600,204.4
AISI-SAE 1026,0.25,0.79,0.012,0.026,0.11,0.0,0.0,0.0,0.0,0.0,42.5,415,490,3600,315.6
AISI-SAE 1026,0.25,0.79,0.012,0.026,0.11,0.0,0.0,0.0,0.0,0.0,26.2,415,490,14400,482.2
AISI-SAE 1026,0.25,0.79,0.012,0.026,0.11,0.0,0.0,0.0,0.0,0.0,10.9,415,490,86400,593.3
AISI-SAE 1030,0.31,0.57,0.008,0.025,0.09,0.02,0.02,0.0,0.0,0.0,13.1,440,525,600,704.4
AISI-SAE 1030,0.31,0.57,0.008,0.025,0.09,0.02,0.02,0.0,0.0,0.0,40.9,440,525,14400,315.6
AISI-SAE 1030,0.31,0.57,0.008,0.025,0.09,0.02,0.02,0.0,0.0,0.0,27.8,440,525,86400,426.7
AISI-SAE 1035,0.36,0.74,0.019,0.03,0.24,0.02,0.02,0.01,0.0,0.0,28.4,370,585,600,537.8
AISI-SAE 1035,0.36,0.74,0.019,0.03,0.24,0.02,0.02,0.01,0.0,0.0,16.5,370,585,3600,648.9
AISI-SAE 1035,0.36,0.74,0.019,0.03,0.24,0.02,0.02,0.01,0.0,0.0,49.1,370,585,86400,204.4
AISI-SAE 1038,0.39,0.75,0.048,0.043,0.18,0.0,0.0,0.0,0.0,0.0,46.0,485,570,3600,315.6
AISI-SAE 1040,0.4,0.6,0.01,0.013,0.27,0.02,0.07,0.01,0.0,0.0,35.1,415,620,600,482.2
AISI-SAE 1040,0.4,0.6,0.01,0.013,0.27,0.02,0.07,0.01,0.0,0.0,24.6,415,620,3600,593.3
AISI-SAE 1040,0.4,0.6,0.01,0.013,0.27,0.02,0.07,0.01,0.0,0.0,12.6,415,620,14400,704.4
AISI-SAE 1042,0.44,0.79,0.02,0.03,0.24,0.02,0.02,0.01,0.0,0.0,53.6,580,700,600,260.0
AISI-SAE 1042,0.44,0.79,0.02,0.03,0.24,0.02,0.02,0.01,0.0,0.0,44.7,580,700,3600,371.1
AISI-SAE 1042,0.44,0.79,0.02,0.03,0.24,0.02,0.02,0.01,0.0,0.0,32.3,580,700,14400,482.2
AISI-SAE 1042,0.44,0.79,0.02,0.03,0.24,0.02,0.02,0.01,0.0,0.0,17.1,580,700,86400,593.3
AISI-SAE 1045,0.45,0.73,0.017,0.03,0.17,0.01,0.02,0.01,0.0,0.0,18.5,450,585,600,704.4
AISI-SAE 1045,0.45,0.73,0.017,0.03,0.17,0.01,0.02,0.01,0.0,0.0,52.6,450,585,14400,260.0
AISI-SAE 1045,0.45,0.73,0.017,0.03,0.17,0.01,0.02,0.01,0.0,0.0,41.7,450,585,86400,371.1
AISI-SAE 1049,0.48,0.76,0.046,0.048,0.14,0.0,0.0,0.0,0.0,0.0,35.5,640,750,3600,482.2
AISI-SAE 1050,0.5,0.91,0.046,0.041,0.13,0.0,0.0,0.0,0.0,0.0,41.0,580,690,3600,426.7
AISI-SAE 1065,0.63,0.87,0.023,0.018,0.17,0.02,0.04,0.0,0.0,0.0,49.5,490,635,3600,371.1
AISI-SAE 1065,0.65,0.87,0.04,0.042,0.19,0.0,0.0,0.0,0.0,0.0,41.5,490,635,3600,482.2
AISI-SAE 1080,0.82,0.75,0.054,0.055,0.3,0.0,0.0,0.0,0.0,0.0,47.0,535,820,3600,426.7
AISI-SAE 1335,0.35,1.85,0.02,0.026,0.19,0.01,0.03,0.0,0.0,0.0,30.9,300,550,40,648.9
AISI-SAE 1335,0.35,1.85,0.02,0.026,0.19,0.01,0.03,0.0,0.0,0.0,25.5,300,550,900,648.9
AISI-SAE 1335,0.35,1.85,0.02,0.026,0.19,0.01,0.03,0.0,0.0,0.0,37.9,300,550,7200,426.7
AISI-SAE 1335,0.35,1.85,0.02,0.026,0.19,0.01,0.03,0.0,0.0,0.0,14.8,300,550,28800,648.9
AISI-SAE 4027,0.26,0.87,0.015,0.03,0.29,0.03,0.06,0.26,0.0,0.0,46.4,325,515,600,260.0
AISI-SAE 4027,0.26,0.87,0.015,0.03,0.29,0.03,0.06,0.26,0.0,0.0,39.7,325,515,3600,371.1
AISI-SAE 4027,0.26,0.87,0.015,0.03,0.29,0.03,0.06,0.26,0.0,0.0,32.0,325,515,14400,482.2
AISI-SAE 4027,0.26,0.87,0.015,0.03,0.29,0.03,0.06,0.26,0.0,0.0,23.0,325,515,86400,593.3
AISI-SAE 4037,0.35,0.8,0.022,0.028,0.24,0.06,0.06,0.25,0.0,0.0,23.0,290,540,600,704.4
AISI-SAE 4037,0.35,0.8,0.022,0.028,0.24,0.06,0.06,0.25,0.0,0.0,48.1,290,540,14400,260.0
AISI-SAE 4037,0.35,0.8,0.022,0.028,0.24,0.06,0.06,0.25,0.0,0.0,41.5,290,540,86400,371.1
AISI-SAE 4047,0.48,0.94,0.015,0.03,0.16,0.04,0.03,0.25,0.0,0.0,41.6,310,580,600,482.2
AISI-SAE 4047,0.48,0.94,0.015,0.03,0.16,0.04,0.03,0.25,0.0,0.0,33.0,310,580,3600,593.3
AISI-SAE 4047,0.48,0.94,0.015,0.03,0.16,0.04,0.03,0.25,0.0,0.0,14.0,310,580,14400,704.4
AISI-SAE 4140,0.41,0.88,0.016,0.018,0.23,0.0,1.02,0.22,0.0,0.0,60.3,415,655,10,150.0
AISI-SAE 4140,0.41,0.88,0.016,0.018,0.23,0.0,1.02,0.22,0.0,0.0,58.8,415,655,90,100.0
AISI-SAE 4140,0.37,0.77,0.019,0.026,0.15,0.04,0.98,0.21,0.0,0.0,33.8,415,655,300,648.9
AISI-SAE 4140,0.41,0.88,0.016,0.018,0.23,0.0,1.02,0.22,0.0,0.0,50.9,415,655,3600,250.0
AISI-SAE 4140,0.37,0.77,0.019,0.026,0.15,0.04,0.98,0.21,0.0,0.0,31.2,415,655,3600,648.9
AISI-SAE 4140,0.41,0.88,0.016,0.018,0.23,0.0,1.02,0.22,0.0,0.0,43.1,415,655,9000,400.0
AISI-SAE 4140,0.37,0.77,0.019,0.026,0.15,0.04,0.98,0.21,0.0,0.0,35.2,415,655,28800,537.8
AISI-SAE 4140,0.41,0.88,0.016,0.018,0.23,0.0,1.02,0.22,0.0,0.0,40.9,415,655,86400,400.0
AISI-SAE 4340,0.39,0.75,0.019,0.016,0.26,1.74,0.79,0.26,0.0,0.0,53.9,470,745,10,300.0
AISI-SAE 4340,0.39,0.75,0.019,0.016,0.26,1.74,0.79,0.26,0.0,0.0,54.5,470,745,90,250.0
AISI-SAE 4340,0.42,0.78,0.018,0.027,0.24,1.79,0.8,0.33,0.0,0.0,40.0,470,745,300,593.3
AISI-SAE 4340,0.39,0.75,0.019,0.016,0.26,1.74,0.79,0.26,0.0,0.0,33.6,470,745,900,600.0
AISI-SAE 4340,0.39,0.75,0.019,0.016,0.26,1.74,0.79,0.26,0.0,0.0,37.5,470,745,3600,500.0
AISI-SAE 4340,0.39,0.75,0.019,0.016,0.26,1.74,0.79,0.26,0.0,0.0,52.1,470,745,9000,150.0
AISI-SAE 4340,0.42,0.78,0.018,0.027,0.24,1.79,0.8,0.33,0.0,0.0,23.6,470,745,14400,648.9
AISI-SAE 4340,0.39,0.75,0.019,0.016,0.26,1.74,0.79,0.26,0.0,0.0,51.0,470,745,86400,150.0
AISI-SAE 4340,0.42,0.78,0.018,0.027,0.24,1.79,0.8,0.33,0.0,0.0,17.7,470,745,115200,648.9
AISI-SAE 4640,0.36,0.63,0.018,0.021,0.19,1.84,0.06,0.23,0.0,0.0,30.7,1103,1276,300,648.9
AISI-SAE 4640,0.36,0.63,0.018,0.021,0.19,1.84,0.06,0.23,0.0,0.0,31.2,1103,1276,3600,593.3
AISI-SAE 4640,0.36,0.63,0.018,0.021,0.19,1.84,0.06,0.23,0.0,0.0,51.4,1103,1276,28800,204.4
AISI-SAE 4640,0.36,0.63,0.018,0.021,0.19,1.84,0.06,0.23,0.0,0.0,38.6,1103,1276,115200,426.7
AISI-SAE 5140,0.42,0.68,0.026,0.032,0.16,0.07,0.93,0.0,0.0,0.0,39.3,295,570,300,537.8
AISI-SAE 5140,0.42,0.68,0.026,0.032,0.16,0.07,0.93,0.0,0.0,0.0,39.5,295,570,3600,482.2
AISI-SAE 5140,0.42,0.68,0.026,0.032,0.16,0.07,0.93,0.0,0.0,0.0,32.1,295,570,14400,537.8
AISI-SAE 5140,0.42,0.68,0.026,0.032,0.16,0.07,0.93,0.0,0.0,0.0,52.8,295,570,115200,204.4
AISI-SAE 5160,0.62,0.88,0.012,0.018,0.22,0.0,0.79,0.0,0.0,0.0,52.5,275,724,10,600.0
AISI-SAE 5160,0.62,0.88,0.012,0.018,0.22,0.0,0.79,0.0,0.0,0.0,59.4,275,724,900,150.0
AISI-SAE 5160,0.62,0.88,0.012,0.018,0.22,0.0,0.79,0.0,0.0,0.0,27.7,275,724,3600,600.0
AISI-SAE 5160,0.62,0.88,0.012,0.018,0.22,0.0,0.79,0.0,0.0,0.0,56.4,275,724,86400,150.0
AISI-SAE 6145,0.43,0.74,0.019,0.024,0.23,0.06,0.92,0.0,0.16,0.0,48.2,1165,1213,120,426.7
AISI-SAE 6145,0.43,0.74,0.019,0.024,0.23,0.06,0.92,0.0,0.16,0.0,54.9,1165,1213,3600,204.4
AISI-SAE 6145,0.43,0.74,0.019,0.024,0.23,0.06,0.92,0.0,0.16,0.0,36.9,1165,1213,7200,537.8
AISI-SAE 6145,0.43,0.74,0.019,0.024,0.23,0.06,0.92,0.0,0.16,0.0,53.4,1165,1213,57600,204.4
AISI-SAE 6150,0.51,0.81,0.021,0.014,0.28,0.0,0.98,0.0,0.0,0.0,62.1,415,670,10,200.0
AISI-SAE 6150,0.51,0.81,0.021,0.014,0.28,0.0,0.98,0.0,0.0,0.0,56.5,415,670,90,400.0
AISI-SAE 6150,0.51,0.81,0.021,0.014,0.28,0.0,0.98,0.0,0.0,0.0,36.0,415,670,900,700.0
AISI-SAE 6150,0.51,0.81,0.021,0.014,0.28,0.0,0.98,0.0,0.0,0.0,44.1,415,670,9000,400.0
AISI-SAE 6150,0.51,0.81,0.021,0.014,0.28,0.0,0.98,0.0,0.0,0.0,9.9,415,670,86400,700.0
AISI-SAE 9264,0.55,0.78,0.012,0.022,1.62,0.0,0.77,0.01,0.0,0.0,58.9,410,660,3600,260.0
AISI-SAE 9264,0.55,0.78,0.012,0.022,1.62,0.0,0.77,0.01,0.0,0.0,55.5,410,660,14400,371.1
AISI-SAE 9264,0.55,0.78,0.012,0.022,1.62,0.0,0.77,0.01,0.0,0.0,42.9,410,660,86400,482.2
AISI-SAE E52100,1.02,0.4,0.017,0.014,0.23,0.0,1.42,0.0,0.0,0.0,54.6,460,1300,10,600.0
AISI-SAE E52100,1.02,0.4,0.017,0.014,0.23,0.0,1.42,0.0,0.0,0.0,63.3,460,1300,900,150.0
AISI-SAE E52100,1.02,0.4,0.017,0.014,0.23,0.0,1.42,0.0,0.0,0.0,36.8,460,1300,3600,600.0
AISI-SAE E52100,1.02,0.4,0.017,0.014,0.23,0.0,1.42,0.0,0.0,0.0,59.4,460,1300,86400,150.0
"0,31%C - plain carbon steel",0.31,0.52,0.007,0.026,0.1,0.0,0.015,0.0,0.0,0.06,46.5,440,525,10,300.0
"0,31%C - plain carbon steel",0.31,0.52,0.007,0.026,0.1,0.0,0.015,0.0,0.0,0.06,22.5,440,525,90,600.0
"0,31%C - plain carbon steel",0.31,0.52,0.007,0.026,0.1,0.0,0.015,0.0,0.0,0.06,47.0,440,525,9000,150.0
"0,31%C - plain carbon steel",0.31,0.52,0.007,0.026,0.1,0.0,0.015,0.0,0.0,0.06,37.5,440,525,86400,300.0
"0,56%C - plain carbon steel",0.56,0.54,0.012,0.015,0.18,0.0,0.02,0.0,0.0,0.0,38.5,560,660,10,600.0
"0,56%C - plain carbon steel",0.56,0.54,0.012,0.015,0.18,0.0,0.02,0.0,0.0,0.0,61.5,560,660,900,150.0
"0,56%C - plain carbon steel",0.56,0.54,0.012,0.015,0.18,0.0,0.02,0.0,0.0,0.0,50.5,560,660,9000,300.0
"0,56%C - plain carbon steel",0.56,0.54,0.012,0.015,0.18,0.0,0.02,0.0,0.0,0.0,18.5,560,660,86400,600.0
"0,74%C - plain carbon steel",0.74,0.66,0.009,0.021,0.18,0.0,0.01,0.0,0.0,0.0,67.5,505,650,90,150.0
"0,74%C - plain carbon steel",0.74,0.66,0.009,0.021,0.18,0.0,0.01,0.0,0.0,0.0,56.5,505,650,900,300.0
"0,74%C - plain carbon steel",0.74,0.66,0.009,0.021,0.18,0.0,0.01,0.0,0.0,0.0,28.5,505,650,9000,600.0
"0,89%C - plain carbon steel",0.89,0.55,0.012,0.02,0.06,0.0,0.01,0.0,0.0,0.08,67.5,540,696,10,150.0
"0,89%C - plain carbon steel",0.89,0.55,0.012,0.02,0.06,0.0,0.01,0.0,0.0,0.08,59.5,540,696,90,300.0
"0,89%C - plain carbon steel",0.89,0.55,0.012,0.02,0.06,0.0,0.01,0.0,0.0,0.08,34.0,540,696,900,600.0
"0,89%C - plain carbon steel",0.89,0.55,0.012,0.02,0.06,0.0,0.01,0.0,0.0,0.08,62.5,540,696,86400,150.0
"0,98%C - plain carbon steel",0.98,0.3,0.007,0.021,0.3,0.0,0.03,0.0,0.0,0.055,65.0,525,685,10,300.0
"0,98%C - plain carbon steel",0.98,0.3,0.007,0.021,0.3,0.0,0.03,0.0,0.0,0.055,35.5,525,685,90,602.0
"0,98%C - plain carbon steel",0.98,0.3,0.007,0.021,0.3,0.0,0.03,0.0,0.0,0.055,64.5,525,685,9000,150.0
"0,98%C - plain carbon steel",0.98,0.3,0.007,0.021,0.3,0.0,0.03,0.0,0.0,0.055,52.5,525,685,86400,300.0
"1,15%C - plain carbon steel",1.15,0.58,0.012,0.021,0.09,0.0,0.01,0.0,0.0,0.0,42.5,525,685,10,600.0
"1,15%C - plain carbon steel",1.15,0.58,0.012,0.021,0.09,0.0,0.01,0.0,0.0,0.0,66.0,525,685,900,150.0
"1,15%C - plain carbon steel",1.15,0.58,0.012,0.021,0.09,0.0,0.01,0.0,0.0,0.0,53.0,525,685,9000,300.0
"1,15%C - plain carbon steel",1.15,0.58,0.012,0.021,0.09,0.0,0.01,0.0,0.0,0.0,23.0,525,685,86400,600.0
"1,15%C - plain carbon steel",1.15,0.58,0.012,0.021,0.09,0.0,0.01,0.0,0.0,0.0,4.5,525,685,86400,700.0