Folder: Mild-Steel-Tempering/resources/multiout

Note: README.md
# Mild-Steel-Tempering
UC Berkeley-Ext Data Analytics Boot Camp Project4 - Solo

File: X_nopreproc.csv
steel_type_AISI 1030,steel_type_AISI 1049,steel_type_AISI 1055,steel_type_AISI 1074 Carbon Steel,steel_type_AISI 1090,steel_type_AISI 1095,steel_type_AISI 4047,steel_type_AISI 4640,steel_type_AISI 52100,steel_type_AISI 6145,steel_type_AISI-SAE 1026,steel_type_AISI-SAE 1035,steel_type_AISI-SAE 1038,steel_type_AISI-SAE 1040,steel_type_AISI-SAE 1042,steel_type_AISI-SAE 1045,steel_type_AISI-SAE 1050,steel_type_AISI-SAE 1065,steel_type_AISI-SAE 1080,steel_type_AISI-SAE 1335,steel_type_AISI-SAE 4027,steel_type_AISI-SAE 4037,steel_type_AISI-SAE 4140,steel_type_AISI-SAE 4340,steel_type_AISI-SAE 5140,steel_type_AISI-SAE 5160,steel_type_AISI-SAE 6150,steel_type_AISI-SAE 9254,C,Mn,P,S,Si,Ni,Cr,Mo,V,Al,Cu,final_hardness_post_tempering_HRC,yield_strength_MPa,ultimate_strength_MPA
0.0,0.0,0.0,0.0,0.0,0.0,0.0,0.0,0.0,0.0,1.0,0.0,0.0,0.0,0.0,0.0,0.0,0.0,0.0,0.0,0.0,0.0,0.0,0.0,0.0,0.0,0.0,0.0,-1.1559,0.167872,-0.60703,0.268364,-0.513467,-0.392117,-0.813526,-0.638219,-0.201129,0.0,-0.337311,0.611736,-0.342255,-1.0096
0.0,0.0,0.0,0.0,0.0,0.0,0.0,0.0,0.0,0.0,1.0,0.0,0.0,0.0,0.0,0.0,0.0,0.0,0.0,0.0,0.0,0.0,0.0,0.0,0.0,0.0,0.0,0.0,-1.1559,0.167872,-0.60703,0.268364,-0.513467,-0.392117,-0.813526,-0.638219,-0.201129,0.0,-0.337311,-0.0773012,-0.342255,-1.0096
1.0,0.0,0.0,0.0,0.0,0.0,0.0,0.0,0.0,0.0,0.0,0.0,0.0,0.0,0.0,0.0,0.0,0.0,0.0,0.0,0.0,0.0,0.0,0.0,0.0,0.0,0.0,0.0,-0.89915,-0.656253,-1.08405,0.135729,-0.591857,-0.357126,-0.769961,-0.638219,-0.201129,0.0,-0.337311,-0.731539,-0.221583,-0.847309
0.0,0.0,0.0,0.0,0.0,0.0,0.0,0.0,0.0,0.0,0.0,1.0,0.0,0.0,0.0,0.0,0.0,0.0,0.0,0.0,0.0,0.0,0.0,0.0,0.0,0.0,0.0,0.0,-0.685193,-0.0194292,0.227752,0.798904,-0.00393169,-0.357126,-0.769961,-0.550551,-0.201129,0.0,-0.337311,-0.773299,-0.559465,-0.569102
0.0,0.0,0.0,0.0,0.0,0.0,0.0,0.0,0.0,0.0,0.0,0.0,1.0,0.0,0.0,0.0,0.0,0.0,0.0,0.0,0.0,0.0,0.0,0.0,0.0,0.0,0.0,0.0,-0.556819,0.018031,3.68613,2.52316,-0.239102,-0.392117,-0.813526,-0.638219,-0.201129,0.0,-0.337311,-0.961218,-0.00437273,-0.638654
0.0,0.0,0.0,0.0,0.0,0.0,0.0,0.0,0.0,0.0,0.0,0.0,0.0,1.0,0.0,0.0,0.0,0.0,0.0,0.0,0.0,0.0,0.0,0.0,0.0,0.0,0.0,0.0,-0.514028,-0.543873,-0.845539,-1.45589,0.113653,-0.357126,-0.66105,-0.550551,-0.201129,0.0,-0.337311,-1.70594,-0.342255,-0.406815
0.0,0.0,0.0,0.0,0.0,0.0,0.0,0.0,0.0,0.0,0.0,0.0,0.0,0.0,1.0,0.0,0.0,0.0,0.0,0.0,0.0,0.0,0.0,0.0,0.0,0.0,0.0,0.0,-0.342863,0.167872,0.347007,0.798904,-0.00393169,-0.357126,-0.769961,-0.550551,-0.201129,0.0,-0.337311,-1.97041,0.454182,-0.035872
0.0,0.0,0.0,0.0,0.0,0.0,0.0,0.0,0.0,0.0,0.0,0.0,0.0,0.0,0.0,1.0,0.0,0.0,0.0,0.0,0.0,0.0,0.0,0.0,0.0,0.0,0.0,0.0,-0.300072,-0.0568895,-0.010757,0.798904,-0.278297,-0.374621,-0.769961,-0.550551,-0.201129,0.0,-0.337311,1.00846,-0.173314,-0.569102
0.0,1.0,0.0,0.0,0.0,0.0,0.0,0.0,0.0,0.0,0.0,0.0,0.0,0.0,0.0,0.0,0.0,0.0,0.0,0.0,0.0,0.0,0.0,0.0,0.0,0.0,0.0,0.0,-0.171698,0.0554913,3.44762,3.18633,-0.395882,-0.392117,-0.813526,-0.638219,-0.201129,0.0,-0.337311,0.709176,0.743796,0.195967
0.0,0.0,0.0,0.0,0.0,0.0,0.0,0.0,0.0,0.0,0.0,0.0,0.0,0.0,0.0,0.0,0.0,1.0,0.0,0.0,0.0,0.0,0.0,0.0,0.0,0.0,0.0,0.0,0.470172,0.467554,0.70477,-0.792715,-0.278297,-0.357126,-0.726396,-0.638219,-0.201129,0.0,-0.337311,-0.50882,0.0197617,-0.337263
0.0,0.0,0.0,0.0,0.0,0.0,0.0,0.0,0.0,0.0,0.0,0.0,0.0,0.0,0.0,0.0,0.0,0.0,0.0,1.0,0.0,0.0,0.0,0.0,0.0,0.0,0.0,0.0,-0.727985,4.13866,0.347007,0.268364,-0.199907,-0.374621,-0.748179,-0.638219,-0.201129,0.0,-0.337311,-0.265221,-0.897348,-0.731389
0.0,0.0,0.0,0.0,0.0,0.0,0.0,0.0,0.0,0.0,0.0,0.0,0.0,0.0,0.0,0.0,0.0,0.0,0.0,1.0,0.0,0.0,0.0,0.0,0.0,0.0,0.0,0.0,-0.727985,4.13866,0.347007,0.268364,-0.199907,-0.374621,-0.748179,-0.638219,-0.201129,0.0,-0.337311,-0.30698,-0.897348,-0.731389
0.0,0.0,0.0,0.0,0.0,0.0,0.0,0.0,0.0,0.0,0.0,0.0,0.0,0.0,0.0,0.0,0.0,0.0,0.0,0.0,1.0,0.0,0.0,0.0,0.0,0.0,0.0,0.0,-1.11311,0.467554,-0.249266,0.798904,0.192043,-0.33963,-0.682832,1.64116,-0.201129,0.0,-0.337311,-0.146901,-0.776675,-0.893677
0.0,0.0,0.0,0.0,0.0,0.0,0.0,0.0,0.0,0.0,0.0,0.0,0.0,0.0,0.0,0.0,0.0,0.0,0.0,0.0,0.0,1.0,0.0,0.0,0.0,0.0,0.0,0.0,-0.727985,0.205332,0.585516,0.533634,-0.00393169,-0.287143,-0.682832,1.55349,-0.201129,0.0,-0.337311,0.0131785,-0.945617,-0.777757
0.0,0.0,0.0,0.0,0.0,0.0,0.0,0.0,0.0,0.0,0.0,0.0,0.0,0.0,0.0,0.0,0.0,0.0,0.0,0.0,0.0,1.0,0.0,0.0,0.0,0.0,0.0,0.0,-0.727985,0.205332,0.585516,0.533634,-0.00393169,-0.287143,-0.682832,1.55349,-0.201129,0.0,-0.337311,-0.47402,-0.945617,-0.777757
0.0,0.0,0.0,0.0,0.0,0.0,1.0,0.0,0.0,0.0,0.0,0.0,0.0,0.0,0.0,0.0,0.0,0.0,0.0,0.0,0.0,0.0,0.0,0.0,0.0,0.0,0.0,0.0,-0.171698,0.729776,-0.249266,0.798904,-0.317492,-0.322134,-0.748179,1.55349,-0.201129,0.0,-0.337311,-0.43922,-0.849079,-0.592286
0.0,0.0,0.0,0.0,0.0,0.0,0.0,0.0,0.0,0.0,0.0,0.0,0.0,0.0,0.0,0.0,0.0,0.0,0.0,0.0,0.0,0.0,1.0,0.0,0.0,0.0,0.0,0.0,-0.471237,0.505014,-0.130012,-0.792715,-0.0431267,-0.392117,1.40827,1.29048,-0.201129,0.0,-0.337311,0.890135,-0.342255,-0.244527
0.0,0.0,0.0,0.0,0.0,0.0,0.0,0.0,0.0,0.0,0.0,0.0,0.0,0.0,0.0,0.0,0.0,0.0,0.0,0.0,0.0,0.0,1.0,0.0,0.0,0.0,0.0,0.0,-0.471237,0.505014,-0.130012,-0.792715,-0.0431267,-0.392117,1.40827,1.29048,-0.201129,0.0,-0.337311,-0.592339,-0.342255,-0.244527
0.0,0.0,0.0,0.0,0.0,0.0,0.0,0.0,0.0,0.0,0.0,0.0,0.0,0.0,0.0,0.0,0.0,0.0,0.0,0.0,0.0,0.0,1.0,0.0,0.0,0.0,0.0,0.0,-0.642402,0.0929515,0.227752,0.268364,-0.356687,-0.322134,1.32114,1.20281,-0.201129,0.0,-0.337311,-1.28834,-0.342255,-0.244527
0.0,0.0,0.0,0.0,0.0,0.0,0.0,0.0,0.0,0.0,0.0,0.0,0.0,0.0,0.0,0.0,0.0,0.0,0.0,0.0,0.0,0.0,0.0,1.0,0.0,0.0,0.0,0.0,-0.556819,0.018031,0.227752,-1.05799,0.0744583,2.65214,0.907278,1.64116,-0.201129,0.0,-0.337311,0.569977,-0.0767761,0.172783
0.0,0.0,0.0,0.0,0.0,0.0,0.0,0.0,0.0,0.0,0.0,0.0,0.0,0.0,0.0,0.0,0.0,0.0,0.0,0.0,0.0,0.0,0.0,1.0,0.0,0.0,0.0,0.0,-0.428445,0.130412,0.108498,0.400999,-0.00393169,2.73962,0.92906,2.25483,-0.201129,0.0,-0.337311,0.479497,-0.0767761,0.172783
0.0,0.0,0.0,0.0,0.0,0.0,0.0,0.0,0.0,0.0,0.0,0.0,0.0,0.0,0.0,0.0,0.0,0.0,0.0,0.0,0.0,0.0,0.0,1.0,0.0,0.0,0.0,0.0,-0.428445,0.130412,0.108498,0.400999,-0.00393169,2.73962,0.92906,2.25483,-0.201129,0.0,-0.337311,0.173258,-0.0767761,0.172783
0.0,0.0,0.0,0.0,0.0,0.0,0.0,1.0,0.0,0.0,0.0,0.0,0.0,0.0,0.0,0.0,0.0,0.0,0.0,0.0,0.0,0.0,0.0,0.0,0.0,0.0,0.0,0.0,-0.685193,-0.431492,0.108498,-0.394811,-0.199907,2.8271,-0.682832,1.37815,-0.201129,0.0,-0.337311,-0.230421,2.97865,2.63491
0.0,0.0,0.0,0.0,0.0,0.0,0.0,1.0,0.0,0.0,0.0,0.0,0.0,0.0,0.0,0.0,0.0,0.0,0.0,0.0,0.0,0.0,0.0,0.0,0.0,0.0,0.0,0.0,-0.685193,-0.431492,0.108498,-0.394811,-0.199907,2.8271,-0.682832,1.37815,-0.201129,0.0,-0.337311,0.646536,2.97865,2.63491
0.0,0.0,0.0,0.0,0.0,0.0,0.0,0.0,0.0,0.0,0.0,0.0,0.0,0.0,0.0,0.0,0.0,0.0,0.0,0.0,0.0,0.0,0.0,0.0,1.0,0.0,0.0,0.0,-0.428445,-0.244191,1.06253,1.06417,-0.317492,-0.269647,1.21223,-0.638219,-0.201129,0.0,-0.337311,-0.160821,-0.921482,-0.638654
0.0,0.0,0.0,0.0,0.0,0.0,0.0,0.0,0.0,0.0,0.0,0.0,0.0,0.0,0.0,0.0,0.0,0.0,0.0,0.0,0.0,0.0,0.0,0.0,0.0,1.0,0.0,0.0,0.427381,0.505014,-0.60703,-0.792715,-0.0823217,-0.392117,0.907278,-0.638219,-0.201129,0.0,-0.337311,1.27989,-1.01802,0.0754108
0.0,0.0,0.0,0.0,0.0,0.0,0.0,0.0,0.0,0.0,0.0,0.0,0.0,0.0,0.0,0.0,0.0,0.0,0.0,0.0,0.0,0.0,0.0,0.0,0.0,1.0,0.0,0.0,0.427381,0.505014,-0.60703,-0.792715,-0.0823217,-0.392117,0.907278,-0.638219,-0.201129,0.0,-0.337311,1.20333,-1.01802,0.0754108
0.0,0.0,0.0,0.0,0.0,0.0,0.0,0.0,0.0,1.0,0.0,0.0,0.0,0.0,0.0,0.0,0.0,0.0,0.0,0.0,0.0,0.0,0.0,0.0,0.0,0.0,0.0,0.0,-0.385654,-0.0194292,0.227752,0.00309413,-0.0431267,-0.287143,1.19045,-0.638219,4.97192,0.0,-0.337311,-0.188661,3.27791,2.3428
0.0,0.0,0.0,0.0,0.0,0.0,0.0,0.0,0.0,1.0,0.0,0.0,0.0,0.0,0.0,0.0,0.0,0.0,0.0,0.0,0.0,0.0,0.0,0.0,0.0,0.0,0.0,0.0,-0.385654,-0.0194292,0.227752,0.00309413,-0.0431267,-0.287143,1.19045,-0.638219,4.97192,0.0,-0.337311,-1.4345,3.27791,2.3428
0.0,0.0,0.0,0.0,0.0,0.0,0.0,0.0,0.0,0.0,0.0,0.0,0.0,0.0,0.0,0.0,0.0,0.0,0.0,0.0,0.0,0.0,0.0,0.0,0.0,0.0,1.0,0.0,-0.0433237,0.242792,0.466261,-1.32326,0.152848,-0.392117,1.32114,-0.638219,-0.201129,0.0,-0.337311,-0.2861,-0.342255,-0.174975
0.0,0.0,0.0,0.0,0.0,0.0,0.0,0.0,0.0,0.0,0.0,0.0,0.0,0.0,0.0,0.0,0.0,0.0,0.0,0.0,0.0,0.0,0.0,0.0,0.0,0.0,0.0,1.0,0.127842,0.130412,-0.60703,-0.262176,5.40498,-0.392117,0.863713,-0.550551,-0.201129,0.0,-0.337311,0.556057,-0.36639,-0.221343
0.0,0.0,0.0,0.0,0.0,0.0,0.0,0.0,0.0,0.0,0.0,0.0,0.0,0.0,0.0,0.0,0.0,0.0,0.0,0.0,0.0,0.0,0.0,0.0,0.0,0.0,0.0,1.0,0.127842,0.130412,-0.60703,-0.262176,5.40498,-0.392117,0.863713,-0.550551,-0.201129,0.0,-0.337311,-0.230421,-0.36639,-0.221343
0.0,0.0,0.0,0.0,0.0,0.0,0.0,0.0,1.0,0.0,0.0,0.0,0.0,0.0,0.0,0.0,0.0,0.0,0.0,0.0,0.0,0.0,0.0,0.0,0.0,0.0,0.0,0.0,2.13903,-1.29308,-0.010757,-1.32326,-0.0431267,-0.392117,2.27956,-0.638219,-0.201129,0.0,-0.337311,1.07109,-0.125045,2.7462
1.0,0.0,0.0,0.0,0.0,0.0,0.0,0.0,0.0,0.0,0.0,0.0,0.0,0.0,0.0,0.0,0.0,0.0,0.0,0.0,0.0,0.0,0.0,0.0,0.0,0.0,0.0,0.0,-0.89915,-0.843555,-1.2033,0.268364,-0.552662,-0.392117,-0.780852,-0.638219,-0.201129,0.0,2.62872,-1.06562,-0.221583,-0.847309
1.0,0.0,0.0,0.0,0.0,0.0,0.0,0.0,0.0,0.0,0.0,0.0,0.0,0.0,0.0,0.0,0.0,0.0,0.0,0.0,0.0,0.0,0.0,0.0,0.0,0.0,0.0,0.0,-0.89915,-0.843555,-1.2033,0.268364,-0.552662,-0.392117,-0.780852,-0.638219,-0.201129,0.0,2.62872,0.152378,-0.221583,-0.847309
0.0,0.0,1.0,0.0,0.0,0.0,0.0,0.0,0.0,0.0,0.0,0.0,0.0,0.0,0.0,0.0,0.0,0.0,0.0,0.0,0.0,0.0,0.0,0.0,0.0,0.0,0.0,0.0,0.170633,-0.768634,-0.60703,-1.19062,-0.239102,-0.392117,-0.769961,-0.638219,-0.201129,0.0,-0.337311,-0.36962,0.357644,-0.221343
0.0,0.0,0.0,1.0,0.0,0.0,0.0,0.0,0.0,0.0,0.0,0.0,0.0,0.0,0.0,0.0,0.0,0.0,0.0,0.0,0.0,0.0,0.0,0.0,0.0,0.0,0.0,0.0,0.940876,-0.319111,-0.964793,-0.394811,-0.239102,-0.392117,-0.791743,-0.638219,-0.201129,0.0,-0.337311,1.78797,0.0921651,-0.267711
0.0,0.0,0.0,1.0,0.0,0.0,0.0,0.0,0.0,0.0,0.0,0.0,0.0,0.0,0.0,0.0,0.0,0.0,0.0,0.0,0.0,0.0,0.0,0.0,0.0,0.0,0.0,0.0,0.940876,-0.319111,-0.964793,-0.394811,-0.239102,-0.392117,-0.791743,-0.638219,-0.201129,0.0,-0.337311,0.187178,0.0921651,-0.267711
0.0,0.0,0.0,0.0,1.0,0.0,0.0,0.0,0.0,0.0,0.0,0.0,0.0,0.0,0.0,0.0,0.0,0.0,0.0,0.0,0.0,0.0,0.0,0.0,0.0,0.0,0.0,0.0,1.58275,-0.731174,-0.60703,-0.527446,-0.709442,-0.392117,-0.791743,-0.638219,-0.201129,0.0,3.6174,1.85757,0.261106,-0.0544191
0.0,0.0,0.0,0.0,0.0,1.0,0.0,0.0,0.0,0.0,0.0,0.0,0.0,0.0,0.0,0.0,0.0,0.0,0.0,0.0,0.0,0.0,0.0,0.0,0.0,0.0,0.0,0.0,1.96787,-1.66768,-1.2033,-0.394811,0.231238,-0.392117,-0.748179,-0.638219,-0.201129,0.0,2.38155,1.33557,0.188703,-0.105424
0.0,0.0,0.0,0.0,0.0,1.0,0.0,0.0,0.0,0.0,0.0,0.0,0.0,0.0,0.0,0.0,0.0,0.0,0.0,0.0,0.0,0.0,0.0,0.0,0.0,0.0,0.0,0.0,1.96787,-1.66768,-1.2033,-0.394811,0.231238,-0.392117,-0.748179,-0.638219,-0.201129,0.0,2.38155,-2.59681,0.188703,-0.105424
0.0,0.0,0.0,0.0,0.0,1.0,0.0,0.0,0.0,0.0,0.0,0.0,0.0,0.0,0.0,0.0,0.0,0.0,0.0,0.0,0.0,0.0,0.0,0.0,0.0,0.0,0.0,0.0,2.69532,-0.618793,-0.60703,-0.394811,-0.591857,-0.392117,-0.791743,-0.638219,-0.201129,0.0,-0.337311,1.09197,0.188703,-0.105424
0.0,0.0,0.0,0.0,0.0,1.0,0.0,0.0,0.0,0.0,0.0,0.0,0.0,0.0,0.0,0.0,0.0,0.0,0.0,0.0,0.0,0.0,0.0,0.0,0.0,0.0,0.0,0.0,2.69532,-0.618793,-0.60703,-0.394811,-0.591857,-0.392117,-0.791743,-0.638219,-0.201129,0.0,-0.337311,-2.59681,0.188703,-0.105424