Folder: Mild-Steel-Tempering/resources/pred_hardness

Note: README.md
# Mild-Steel-Tempering
UC Berkeley-Ext Data Analytics Boot Camp Project4 - Solo

File: X_nopreproc.csv
steel_type_AISI 1030,steel_type_AISI 1049,steel_type_AISI 1055,steel_type_AISI 1074 Carbon Steel,steel_type_AISI 1090,steel_type_AISI 1095,steel_type_AISI 4047,steel_type_AISI 4640,steel_type_AISI 52100,steel_type_AISI 6145,steel_type_AISI-SAE 1026,steel_type_AISI-SAE 1035,steel_type_AISI-SAE 1038,steel_type_AISI-SAE 1040,steel_type_AISI-SAE 1042,steel_type_AISI-SAE 1045,steel_type_AISI-SAE 1050,steel_type_AISI-SAE 1065,steel_type_AISI-SAE 1080,steel_type_AISI-SAE 1335,steel_type_AISI-SAE 4027,steel_type_AISI-SAE 4037,steel_type_AISI-SAE 4140,steel_type_AISI-SAE 4340,steel_type_AISI-SAE 5140,steel_type_AISI-SAE 5160,steel_type_AISI-SAE 6150,steel_type_AISI-SAE 9254,C,Mn,P,S,Si,Ni,Cr,Mo,V,Cu,yield_strength_MPa,ultimate_strength_MPA,tempering_time_s,tempering_temperature_C
0.0,0.0,0.0,0.0,0.0,0.0,0.0,0.0,0.0,0.0,1.0,0.0,0.0,0.0,0.0,0.0,0.0,0.0,0.0,0.0,0.0,0.0,0.0,0.0,0.0,0.0,0.0,0.0,-1.1559,0.167872,-0.60703,0.268364,-0.513467,-0.392117,-0.813526,-0.638219,-0.201129,-0.337311,-0.342255,-1.0096,-0.617861,-1.18945
0.0,0.0,0.0,0.0,0.0,0.0,0.0,0.0,0.0,0.0,1.0,0.0,0.0,0.0,0.0,0.0,0.0,0.0,0.0,0.0,0.0,0.0,0.0,0.0,0.0,0.0,0.0,0.0,-1.1559,0.167872,-0.60703,0.268364,-0.513467,-0.392117,-0.813526,-0.638219,-0.201129,-0.337311,-0.342255,-1.0096,1.89775,-0.254758
1.0,0.0,0.0,0.0,0.0,0.0,0.0,0.0,0.0,0.0,0.0,0.0,0.0,0.0,0.0,0.0,0.0,0.0,0.0,0.0,0.0,0.0,0.0,0.0,0.0,0.0,0.0,0.0,-0.89915,-0.656253,-1.08405,0.135729,-0.591857,-0.357126,-0.769961,-0.638219,-0.201129,-0.337311,-0.221583,-0.847309,-0.213252,0.679933
0.0,0.0,0.0,0.0,0.0,0.0,0.0,0.0,0.0,0.0,0.0,1.0,0.0,0.0,0.0,0.0,0.0,0.0,0.0,0.0,0.0,0.0,0.0,0.0,0.0,0.0,0.0,0.0,-0.685193,-0.0194292,0.227752,0.798904,-0.00393169,-0.357126,-0.769961,-0.550551,-0.201129,-0.337311,-0.559465,-0.569102,-0.529902,1.30287
0.0,0.0,0.0,0.0,0.0,0.0,0.0,0.0,0.0,0.0,0.0,0.0,0.0,1.0,0.0,0.0,0.0,0.0,0.0,0.0,0.0,0.0,0.0,0.0,0.0,0.0,0.0,0.0,-0.514028,-0.543873,-0.845539,-1.45589,0.113653,-0.357126,-0.66105,-0.550551,-0.201129,-0.337311,-0.342255,-0.406815,-0.617861,-0.877697
0.0,0.0,0.0,0.0,0.0,0.0,0.0,0.0,0.0,0.0,0.0,0.0,0.0,1.0,0.0,0.0,0.0,0.0,0.0,0.0,0.0,0.0,0.0,0.0,0.0,0.0,0.0,0.0,-0.514028,-0.543873,-0.845539,-1.45589,0.113653,-0.357126,-0.66105,-0.550551,-0.201129,-0.337311,-0.342255,-0.406815,1.89775,-0.254758
0.0,0.0,0.0,0.0,0.0,0.0,0.0,0.0,0.0,0.0,0.0,0.0,0.0,0.0,1.0,0.0,0.0,0.0,0.0,0.0,0.0,0.0,0.0,0.0,0.0,0.0,0.0,0.0,-0.342863,0.167872,0.347007,0.798904,-0.00393169,-0.357126,-0.769961,-0.550551,-0.201129,-0.337311,0.454182,-0.035872,-0.213252,0.368182
0.0,0.0,0.0,0.0,0.0,0.0,0.0,0.0,0.0,0.0,0.0,0.0,0.0,0.0,0.0,1.0,0.0,0.0,0.0,0.0,0.0,0.0,0.0,0.0,0.0,0.0,0.0,0.0,-0.300072,-0.0568895,-0.010757,0.798904,-0.278297,-0.374621,-0.769961,-0.550551,-0.201129,-0.337311,-0.173314,-0.569102,-0.529902,0.991122
0.0,0.0,0.0,0.0,0.0,0.0,0.0,0.0,0.0,0.0,0.0,0.0,0.0,0.0,0.0,0.0,1.0,0.0,0.0,0.0,0.0,0.0,0.0,0.0,0.0,0.0,0.0,0.0,-0.086115,0.617395,3.44762,2.25789,-0.435077,-0.392117,-0.813526,-0.638219,-0.201129,-0.337311,0.454182,-0.0822398,-0.617861,-1.18945
0.0,0.0,0.0,0.0,0.0,0.0,0.0,0.0,0.0,0.0,0.0,0.0,0.0,0.0,0.0,0.0,0.0,1.0,0.0,0.0,0.0,0.0,0.0,0.0,0.0,0.0,0.0,0.0,0.555755,0.467554,2.7321,2.39052,-0.199907,-0.392117,-0.813526,-0.638219,-0.201129,-0.337311,0.0197617,-0.337263,-0.529902,0.368182
0.0,0.0,0.0,0.0,0.0,0.0,0.0,0.0,0.0,0.0,0.0,0.0,0.0,0.0,0.0,0.0,0.0,0.0,0.0,1.0,0.0,0.0,0.0,0.0,0.0,0.0,0.0,0.0,-0.727985,4.13866,0.347007,0.268364,-0.199907,-0.374621,-0.748179,-0.638219,-0.201129,-0.337311,-0.897348,-0.731389,-0.626656,1.30287
0.0,0.0,0.0,0.0,0.0,0.0,0.0,0.0,0.0,0.0,0.0,0.0,0.0,0.0,0.0,0.0,0.0,0.0,0.0,1.0,0.0,0.0,0.0,0.0,0.0,0.0,0.0,0.0,-0.727985,4.13866,0.347007,0.268364,-0.199907,-0.374621,-0.748179,-0.638219,-0.201129,-0.337311,-0.897348,-0.731389,1.05335,0.679933
0.0,0.0,0.0,0.0,0.0,0.0,0.0,0.0,0.0,0.0,0.0,0.0,0.0,0.0,0.0,0.0,0.0,0.0,0.0,0.0,1.0,0.0,0.0,0.0,0.0,0.0,0.0,0.0,-1.11311,0.467554,-0.249266,0.798904,0.192043,-0.33963,-0.682832,1.64116,-0.201129,-0.337311,-0.776675,-0.893677,-0.213252,0.368182
0.0,0.0,0.0,0.0,0.0,0.0,0.0,0.0,0.0,0.0,0.0,0.0,0.0,0.0,0.0,0.0,0.0,0.0,0.0,0.0,0.0,1.0,0.0,0.0,0.0,0.0,0.0,0.0,-0.727985,0.205332,0.585516,0.533634,-0.00393169,-0.287143,-0.682832,1.55349,-0.201129,-0.337311,-0.945617,-0.777757,-0.529902,0.991122
0.0,0.0,0.0,0.0,0.0,0.0,1.0,0.0,0.0,0.0,0.0,0.0,0.0,0.0,0.0,0.0,0.0,0.0,0.0,0.0,0.0,0.0,0.0,0.0,0.0,0.0,0.0,0.0,-0.171698,0.729776,-0.249266,0.798904,-0.317492,-0.322134,-0.748179,1.55349,-0.201129,-0.337311,-0.849079,-0.592286,-0.617861,1.61406
0.0,0.0,0.0,0.0,0.0,0.0,0.0,0.0,0.0,0.0,0.0,0.0,0.0,0.0,0.0,0.0,0.0,0.0,0.0,0.0,0.0,0.0,1.0,0.0,0.0,0.0,0.0,0.0,-0.471237,0.505014,-0.130012,-0.792715,-0.0431267,-0.392117,1.40827,1.29048,-0.201129,-0.337311,-0.342255,-0.244527,-0.635159,-1.49447
0.0,0.0,0.0,0.0,0.0,0.0,0.0,0.0,0.0,0.0,0.0,0.0,0.0,0.0,0.0,0.0,0.0,0.0,0.0,0.0,0.0,0.0,1.0,0.0,0.0,0.0,0.0,0.0,-0.642402,0.0929515,0.227752,0.268364,-0.356687,-0.322134,1.32114,1.20281,-0.201129,-0.337311,-0.342255,-0.244527,-0.609065,0.679933
0.0,0.0,0.0,0.0,0.0,0.0,0.0,0.0,0.0,0.0,0.0,0.0,0.0,0.0,0.0,0.0,0.0,0.0,0.0,0.0,0.0,0.0,1.0,0.0,0.0,0.0,0.0,0.0,-0.642402,0.0929515,0.227752,0.268364,-0.356687,-0.322134,1.32114,1.20281,-0.201129,-0.337311,-0.342255,-0.244527,-0.213252,-1.18945
0.0,0.0,0.0,0.0,0.0,0.0,0.0,0.0,0.0,0.0,0.0,0.0,0.0,0.0,0.0,0.0,0.0,0.0,0.0,0.0,0.0,0.0,0.0,1.0,0.0,0.0,0.0,0.0,-0.556819,0.018031,0.227752,-1.05799,0.0744583,2.65214,0.907278,1.64116,-0.201129,-0.337311,-0.0767761,0.172783,-0.635159,-0.653417
0.0,0.0,0.0,0.0,0.0,0.0,0.0,0.0,0.0,0.0,0.0,0.0,0.0,0.0,0.0,0.0,0.0,0.0,0.0,0.0,0.0,0.0,0.0,1.0,0.0,0.0,0.0,0.0,-0.428445,0.130412,0.108498,0.400999,-0.00393169,2.73962,0.92906,2.25483,-0.201129,-0.337311,-0.0767761,0.172783,-0.609065,0.0569928
0.0,0.0,0.0,0.0,0.0,0.0,0.0,0.0,0.0,0.0,0.0,0.0,0.0,0.0,0.0,0.0,0.0,0.0,0.0,0.0,0.0,0.0,0.0,1.0,0.0,0.0,0.0,0.0,-0.556819,0.018031,0.227752,-1.05799,0.0744583,2.65214,0.907278,1.64116,-0.201129,-0.337311,-0.0767761,0.172783,-0.371577,-0.0927146
0.0,0.0,0.0,0.0,0.0,0.0,0.0,0.0,0.0,0.0,0.0,0.0,0.0,0.0,0.0,0.0,0.0,0.0,0.0,0.0,0.0,0.0,0.0,1.0,0.0,0.0,0.0,0.0,-0.428445,0.130412,0.108498,0.400999,-0.00393169,2.73962,0.92906,2.25483,-0.201129,-0.337311,-0.0767761,0.172783,2.74215,1.30287
0.0,0.0,0.0,0.0,0.0,0.0,0.0,1.0,0.0,0.0,0.0,0.0,0.0,0.0,0.0,0.0,0.0,0.0,0.0,0.0,0.0,0.0,0.0,0.0,0.0,0.0,0.0,0.0,-0.685193,-0.431492,0.108498,-0.394811,-0.199907,2.8271,-0.682832,1.37815,-0.201129,-0.337311,2.97865,2.63491,-0.213252,-0.565947
0.0,0.0,0.0,0.0,0.0,0.0,0.0,0.0,0.0,0.0,0.0,0.0,0.0,0.0,0.0,0.0,0.0,0.0,0.0,0.0,0.0,0.0,0.0,0.0,1.0,0.0,0.0,0.0,-0.428445,-0.244191,1.06253,1.06417,-0.317492,-0.269647,1.21223,-0.638219,-0.201129,-0.337311,-0.921482,-0.638654,-0.609065,0.679933
0.0,0.0,0.0,0.0,0.0,0.0,0.0,0.0,0.0,0.0,0.0,0.0,0.0,0.0,0.0,0.0,0.0,0.0,0.0,0.0,0.0,0.0,0.0,0.0,1.0,0.0,0.0,0.0,-0.428445,-0.244191,1.06253,1.06417,-0.317492,-0.269647,1.21223,-0.638219,-0.201129,-0.337311,-0.921482,-0.638654,2.74215,-1.18945
0.0,0.0,0.0,0.0,0.0,0.0,0.0,0.0,0.0,0.0,0.0,0.0,0.0,0.0,0.0,0.0,0.0,0.0,0.0,0.0,0.0,0.0,0.0,0.0,0.0,1.0,0.0,0.0,0.427381,0.505014,-0.60703,-0.792715,-0.0823217,-0.392117,0.907278,-0.638219,-0.201129,-0.337311,-1.01802,0.0754108,-0.529902,-0.933768
0.0,0.0,0.0,0.0,0.0,0.0,0.0,0.0,0.0,1.0,0.0,0.0,0.0,0.0,0.0,0.0,0.0,0.0,0.0,0.0,0.0,0.0,0.0,0.0,0.0,0.0,0.0,0.0,-0.385654,-0.0194292,0.227752,0.00309413,-0.0431267,-0.287143,1.19045,-0.638219,4.97192,-0.337311,3.27791,2.3428,-0.626656,0.0569928
0.0,0.0,0.0,0.0,0.0,0.0,0.0,0.0,0.0,1.0,0.0,0.0,0.0,0.0,0.0,0.0,0.0,0.0,0.0,0.0,0.0,0.0,0.0,0.0,0.0,0.0,0.0,0.0,-0.385654,-0.0194292,0.227752,0.00309413,-0.0431267,-0.287143,1.19045,-0.638219,4.97192,-0.337311,3.27791,2.3428,1.05335,-1.18945
0.0,0.0,0.0,0.0,0.0,0.0,0.0,0.0,0.0,0.0,0.0,0.0,0.0,0.0,0.0,0.0,0.0,0.0,0.0,0.0,0.0,0.0,0.0,0.0,0.0,0.0,1.0,0.0,-0.0433237,0.242792,0.466261,-1.32326,0.152848,-0.392117,1.32114,-0.638219,-0.201129,-0.337311,-0.342255,-0.174975,-0.609065,-0.653417
0.0,0.0,0.0,0.0,0.0,0.0,0.0,0.0,0.0,0.0,0.0,0.0,0.0,0.0,0.0,0.0,0.0,0.0,0.0,0.0,0.0,0.0,0.0,0.0,0.0,0.0,0.0,1.0,0.127842,0.130412,-0.60703,-0.262176,5.40498,-0.392117,0.863713,-0.550551,-0.201129,-0.337311,-0.36639,-0.221343,-0.617861,-0.254758
0.0,0.0,0.0,0.0,0.0,0.0,0.0,0.0,0.0,0.0,0.0,0.0,0.0,0.0,0.0,0.0,0.0,0.0,0.0,0.0,0.0,0.0,0.0,0.0,0.0,0.0,0.0,1.0,0.127842,0.130412,-0.60703,-0.262176,5.40498,-0.392117,0.863713,-0.550551,-0.201129,-0.337311,-0.36639,-0.221343,1.89775,0.368182
0.0,0.0,0.0,0.0,0.0,0.0,0.0,0.0,1.0,0.0,0.0,0.0,0.0,0.0,0.0,0.0,0.0,0.0,0.0,0.0,0.0,0.0,0.0,0.0,0.0,0.0,0.0,0.0,2.13903,-1.29308,-0.010757,-1.32326,-0.0431267,-0.392117,2.27956,-0.638219,-0.201129,-0.337311,-0.125045,2.7462,-0.529902,-0.933768
1.0,0.0,0.0,0.0,0.0,0.0,0.0,0.0,0.0,0.0,0.0,0.0,0.0,0.0,0.0,0.0,0.0,0.0,0.0,0.0,0.0,0.0,0.0,0.0,0.0,0.0,0.0,0.0,-0.89915,-0.843555,-1.2033,0.268364,-0.552662,-0.392117,-0.780852,-0.638219,-0.201129,2.62872,-0.221583,-0.847309,-0.635159,1.58939
1.0,0.0,0.0,0.0,0.0,0.0,0.0,0.0,0.0,0.0,0.0,0.0,0.0,0.0,0.0,0.0,0.0,0.0,0.0,0.0,0.0,0.0,0.0,0.0,0.0,0.0,0.0,0.0,-0.89915,-0.843555,-1.2033,0.268364,-0.552662,-0.392117,-0.780852,-0.638219,-0.201129,2.62872,-0.221583,-0.847309,1.89775,-0.653417
0.0,0.0,1.0,0.0,0.0,0.0,0.0,0.0,0.0,0.0,0.0,0.0,0.0,0.0,0.0,0.0,0.0,0.0,0.0,0.0,0.0,0.0,0.0,0.0,0.0,0.0,0.0,0.0,0.170633,-0.768634,-0.60703,-1.19062,-0.239102,-0.392117,-0.769961,-0.638219,-0.201129,-0.337311,0.357644,-0.221343,-0.371577,-1.77482
0.0,0.0,0.0,1.0,0.0,0.0,0.0,0.0,0.0,0.0,0.0,0.0,0.0,0.0,0.0,0.0,0.0,0.0,0.0,0.0,0.0,0.0,0.0,0.0,0.0,0.0,0.0,0.0,0.940876,-0.319111,-0.964793,-0.394811,-0.239102,-0.392117,-0.791743,-0.638219,-0.201129,-0.337311,0.0921651,-0.267711,-0.632813,-0.0927146
0.0,0.0,0.0,0.0,1.0,0.0,0.0,0.0,0.0,0.0,0.0,0.0,0.0,0.0,0.0,0.0,0.0,0.0,0.0,0.0,0.0,0.0,0.0,0.0,0.0,0.0,0.0,0.0,1.58275,-0.731174,-0.60703,-0.527446,-0.709442,-0.392117,-0.791743,-0.638219,-0.201129,3.6174,0.261106,-0.0544191,-0.635159,-1.49447
0.0,0.0,0.0,0.0,1.0,0.0,0.0,0.0,0.0,0.0,0.0,0.0,0.0,0.0,0.0,0.0,0.0,0.0,0.0,0.0,0.0,0.0,0.0,0.0,0.0,0.0,0.0,0.0,1.58275,-0.731174,-0.60703,-0.527446,-0.709442,-0.392117,-0.791743,-0.638219,-0.201129,3.6174,0.261106,-0.0544191,-0.371577,0.467987
0.0,0.0,0.0,0.0,0.0,1.0,0.0,0.0,0.0,0.0,0.0,0.0,0.0,0.0,0.0,0.0,0.0,0.0,0.0,0.0,0.0,0.0,0.0,0.0,0.0,0.0,0.0,0.0,1.96787,-1.66768,-1.2033,-0.394811,0.231238,-0.392117,-0.748179,-0.638219,-0.201129,2.38155,0.188703,-0.105424,-0.609065,-1.21412
0.0,0.0,0.0,0.0,0.0,1.0,0.0,0.0,0.0,0.0,0.0,0.0,0.0,0.0,0.0,0.0,0.0,0.0,0.0,0.0,0.0,0.0,0.0,0.0,0.0,0.0,0.0,0.0,2.69532,-0.618793,-0.60703,-0.394811,-0.591857,-0.392117,-0.791743,-0.638219,-0.201129,-0.337311,0.188703,-0.105424,-0.635159,1.02869
0.0,0.0,0.0,0.0,0.0,1.0,0.0,0.0,0.0,0.0,0.0,0.0,0.0,0.0,0.0,0.0,0.0,0.0,0.0,0.0,0.0,0.0,0.0,0.0,0.0,0.0,0.0,0.0,2.69532,-0.618793,-0.60703,-0.394811,-0.591857,-0.392117,-0.791743,-0.638219,-0.201129,-0.337311,0.188703,-0.105424,1.89775,-0.933768
0.0,0.0,0.0,0.0,0.0,1.0,0.0,0.0,0.0,0.0,0.0,0.0,0.0,0.0,0.0,0.0,0.0,0.0,0.0,0.0,0.0,0.0,0.0,0.0,0.0,0.0,0.0,0.0,2.69532,-0.618793,-0.60703,-0.394811,-0.591857,-0.392117,-0.791743,-0.638219,-0.201129,-0.337311,0.188703,-0.105424,1.89775,1.58939